% Calibration data for Beyerdynamic MM1 microphone (serial number 14308)
% Data source: Beyerdynamic factory data (email from kirchhoefer@beyerdynamic.de to matthias@brennwald.org, 18.6.2015)

% General information:
name = Beyerdynamic MM1 (SN 14308)
type = Microphone
% factory:
% sensitivity = 14.5 mV/Pa

% sensitivity from PeakTech calibrator (4.12.2018):
sensitivity = 6.76 mV/Pa

% Transfer function
% free field, 1m distance to sound source, 0 deg. (axial) incidence
% column-1: frequency (Hz)
% column-2: gain (dB) relative to absolute sensitivity value given above
50          1.9
60          1.8
70          1.6
80          1.5
90          1.5
100         1.4
110         1.4
120         1.3
130         1.3
140         1.2
150         1.2
160         1.1
170         1.1
180         1.1
190         1
200         1
210         1
220         1
230         0.9
240         0.9
250         0.9
260         0.8
270         0.8
280         0.8
290         0.7
300         0.7
310         0.7
320         0.6
330         0.6
340         0.6
350         0.6
360         0.5
370         0.5
380         0.5
390         0.4
400         0.4
420         0.3
440         0.3
470         0.2
500         0.1
530         0.1
570         0.1
600         0.1
640         0.1
680         0.1
720         0.1
770         0.1
820         0.1
870         0
920         0
980         0
1050        0
1110        0.1
1180        0.1
1260        0.1
1340        0
1420        0
1510        0
1610        0
1710        0
1820       -0.1
1930       -0.1
2050       -0.3
2180       -0.3
2320       -0.3
2470       -0.2
2630       -0.3
2790       -0.2
2970        0
3160        0
3360        0.2
3570        0.2
3800        0.2
4040       -0.1
4290       -0.3
4570       -0.1
4860        0.3
5160        0.8
5490        1.3
5840        1.6
6210        1.3
6610        1.2
7030        1.4
7470        1.6
7950        1.7
8450        2
8990        2.5
9560        2.4
10160       2.4
10810       2.6
11490       2.7
12220       2.5
13000       2.5
13830       2.5
14700       2.3
15640       2.3
16630       2.1
17690       2
18810       1.8
19980       1.7
